aX,aY,aZ,gX,gY,gZ
2.257,-0.305,-0.350,-61.218,-24.780,-12.268
2.414,-0.304,-0.392,-84.412,-43.945,-9.338
2.569,-0.296,-0.423,-97.778,-63.110,-8.789
2.683,-0.201,-0.514,-99.426,-79.773,-10.803
2.715,-0.130,-0.635,-89.661,-93.018,-15.869
2.723,-0.111,-0.750,-74.097,-106.384,-23.804
2.614,-0.112,-0.815,-60.486,-114.380,-31.555
2.295,-0.015,-0.933,-53.162,-112.366,-33.203
1.720,0.234,-1.161,-49.377,-109.070,-32.410
0.986,0.389,-1.413,-47.424,-116.516,-30.151
0.255,0.608,-1.580,-39.063,-133.118,-20.569
-0.873,0.989,-1.423,-17.639,-176.819,-10.193
-2.064,1.149,-0.415,3.601,-230.286,-6.287
-2.757,1.277,0.753,-11.475,-256.165,-11.536
-3.617,1.598,1.955,-77.515,-256.592,-25.146
-4.000,1.182,2.895,-219.177,-209.900,-27.649
-4.000,0.555,3.785,-393.494,-147.034,4.761
-3.311,0.383,4.000,-519.409,-126.038,45.227
-1.551,-0.164,4.000,-501.587,-156.067,25.391
-0.337,-1.142,4.000,-308.838,-168.640,-49.011
-0.122,-1.697,4.000,7.385,-90.515,-120.178
-0.674,-1.412,2.888,299.377,17.822,-145.752
-0.914,-0.725,1.133,447.693,87.891,-127.563
-0.784,-0.060,0.031,416.199,115.723,-75.134
-0.466,0.481,-0.412,257.568,114.380,-15.503
-0.124,0.732,-0.404,88.806,87.524,24.170
0.024,0.784,-0.144,-20.203,52.307,31.982
0.014,0.628,0.213,-75.378,18.921,23.865
0.112,0.305,0.637,-108.582,-2.808,12.878
0.164,0.227,0.972,-123.901,-14.771,17.090
0.371,0.239,1.243,-102.722,-18.250,18.188
0.437,0.206,1.387,-52.612,-12.268,5.249
0.318,0.069,1.261,-5.554,4.822,-9.216
0.158,-0.008,1.055,16.113,22.766,-13.367
0.112,0.017,0.900,13.062,33.569,-6.836
0.109,0.123,0.827,-3.235,39.124,2.625
0.093,0.212,0.718,-18.005,38.086,8.240
0.083,0.172,0.623,-24.353,31.616,8.789
0.112,0.120,0.649,-25.330,20.813,7.629
0.225,0.108,0.749,-21.118,10.620,6.226
0.313,0.072,0.829,-14.893,7.507,5.981
0.374,0.102,0.905,-6.592,6.104,2.625
0.391,0.100,0.909,3.296,7.874,-0.977
0.371,0.045,0.904,7.507,11.658,-2.502
0.367,-0.029,0.856,5.005,16.052,-0.061
0.364,-0.042,0.783,0.244,19.653,5.554
0.365,-0.038,0.785,-0.671,18.066,8.911
0.417,0.024,0.829,-0.793,13.550,10.559
0.442,0.066,0.887,-1.587,10.620,10.254
0.451,0.064,0.923,-3.174,8.667,7.874
0.442,0.054,0.905,-2.991,7.568,5.615
0.450,0.034,0.909,1.160,6.287,3.174
0.415,0.023,0.889,2.625,4.761,1.099
0.387,0.014,0.853,2.441,3.784,0.427
0.365,-0.001,0.844,2.502,2.502,0.610
0.354,0.000,0.864,0.671,1.465,2.258
0.354,0.004,0.909,-2.197,1.404,3.540
0.337,-0.013,0.930,-6.470,4.089,6.226
0.323,0.000,0.923,-10.193,7.019,9.399
0.292,-0.002,0.915,-8.118,8.606,10.376
0.277,0.023,0.908,-1.770,8.118,9.827
0.295,0.082,0.881,4.944,5.920,7.446
0.290,0.114,0.864,10.315,4.578,4.211
0.287,0.139,0.839,10.742,3.418,2.258
0.301,0.156,0.844,8.179,1.160,0.854
0.285,0.153,0.845,5.737,-0.427,-0.488
0.287,0.116,0.865,3.540,-2.380,-1.404
0.306,0.092,0.879,2.319,-4.028,-1.160
0.311,0.105,0.881,2.380,-3.662,-0.732
0.323,0.119,0.877,2.930,-3.357,-1.221
0.320,0.129,0.878,1.343,-3.235,-1.282
0.340,0.117,0.885,-1.526,-2.686,-1.160
0.356,0.118,0.884,-3.906,-1.892,-0.488
0.353,0.091,0.883,-4.028,-0.244,-0.916
0.370,0.072,0.885,-1.038,-0.427,-2.014
0.389,0.063,0.909,3.540,-1.953,-3.601
0.406,0.052,0.946,6.165,-3.357,-5.798
0.399,0.044,0.957,5.371,-2.014,-5.493
0.396,0.049,0.940,2.319,0.183,-3.784
0.387,0.035,0.927,-0.610,0.854,-3.418
0.396,0.015,0.924,-2.563,0.061,-3.662
0.402,-0.003,0.925,-4.028,-0.610,-3.662
0.398,-0.010,0.926,-4.822,-0.305,-3.479
0.389,-0.008,0.920,-3.418,0.244,-3.418
0.364,-0.019,0.921,-1.343,0.488,-3.845
0.347,-0.048,0.918,-0.366,-0.061,-4.028
0.334,-0.067,0.905,-0.671,-0.061,-3.174
0.325,-0.084,0.901,-0.977,-0.061,-2.380
0.327,-0.082,0.916,-1.282,-0.977,-1.282
0.335,-0.057,0.923,-1.526,-1.709,0.366
0.340,-0.029,0.928,0.122,-1.770,0.977
0.337,-0.021,0.916,1.770,-1.343,0.671
0.321,-0.009,0.894,2.625,-1.160,0.488
0.315,-0.003,0.881,3.906,-1.404,0.183
0.321,-0.003,0.890,4.944,-1.892,0.305
0.341,0.017,0.900,4.517,-0.549,1.587
0.331,0.046,0.890,1.892,2.869,3.540
0.331,0.062,0.872,-1.343,5.371,4.700
0.327,0.064,0.859,-3.296,5.859,5.066
0.319,0.060,0.857,-3.479,5.371,4.700
0.333,0.052,0.863,-2.258,3.601,3.967
0.337,0.059,0.867,0.549,1.709,2.625
0.347,0.060,0.868,3.113,0.916,1.709
0.348,0.066,0.870,2.319,0.732,2.136
0.345,0.065,0.866,-2.747,1.221,4.333
0.349,0.060,0.865,-9.827,2.014,7.141
0.350,0.045,0.878,-15.320,1.465,8.789
0.369,0.032,0.898,-15.381,-0.183,8.057
0.389,0.034,0.930,-12.268,-1.770,6.287
0.393,0.044,0.937,-8.118,-1.221,4.761
0.388,0.034,0.942,-4.761,-0.122,3.174
0.388,0.017,0.936,-3.784,0.732,2.502
0.389,0.000,0.940,-4.395,1.587,3.052
0.391,-0.006,0.947,-4.456,2.686,3.479
0.390,-0.003,0.956,-2.869,3.235,3.662
0.395,0.010,0.966,-0.122,3.601,3.113
0.380,0.016,0.961,3.357,4.089,1.892
0.370,0.024,0.942,6.287,4.028,0.488
0.360,0.031,0.920,8.179,4.028,-0.305

2.068,-0.385,-0.650,-100.769,-133.423,-20.081
2.179,-0.394,-0.667,-87.158,-143.738,-22.644
2.222,-0.369,-0.774,-64.880,-151.123,-33.020
2.176,-0.227,-0.975,-38.757,-155.762,-41.992
2.119,-0.083,-1.120,-10.132,-157.654,-47.974
1.885,0.223,-1.400,10.559,-153.687,-49.866
1.276,0.496,-1.576,19.958,-156.677,-45.715
0.492,0.873,-1.604,5.554,-179.626,-38.391
-0.435,1.076,-1.030,-32.959,-227.051,-36.255
-1.285,0.711,-0.119,-82.031,-270.447,-27.893
-2.047,0.467,1.115,-136.719,-295.715,-9.033
-2.408,0.521,2.055,-179.138,-285.217,-4.639
-2.896,0.469,2.432,-202.881,-244.385,-20.813
-3.202,0.466,2.586,-240.662,-202.637,-28.137
-3.165,0.698,2.905,-300.781,-189.819,-24.109
-2.405,0.675,3.663,-370.850,-210.815,-17.151
-1.241,0.597,4.000,-424.377,-224.548,-13.672
-0.229,0.312,4.000,-409.302,-192.200,-23.376
0.430,-0.112,4.000,-306.213,-124.756,-51.575
0.403,-0.576,3.179,-112.671,-47.729,-96.252
-0.216,-0.638,1.814,118.286,16.052,-129.822
-0.603,-0.242,0.513,283.752,47.974,-133.484
-0.498,0.393,-0.016,331.970,35.400,-116.455
-0.376,0.462,-0.023,264.648,6.042,-95.520
-0.257,0.049,0.180,112.793,-4.578,-56.458
-0.188,-0.109,0.395,-62.805,-2.258,4.456
-0.043,-0.194,0.705,-167.297,-2.441,48.645
0.125,-0.182,0.982,-186.584,-2.258,64.087
0.217,0.118,0.905,-152.771,4.822,63.293
0.168,0.221,0.656,-75.745,11.108,40.405
0.113,0.287,0.540,-2.563,5.188,12.878
0.143,0.225,0.527,32.043,-4.700,-1.526
0.187,0.125,0.611,36.011,-15.930,-5.676
0.245,0.080,0.754,25.391,-20.996,-3.784
0.275,0.132,0.838,2.991,-16.418,6.531
0.321,0.205,0.915,-23.865,-6.470,17.090
0.304,0.189,0.977,-35.828,1.099,20.447
0.313,0.139,0.912,-30.518,4.822,15.747
0.263,0.109,0.831,-12.573,6.775,8.118
0.306,0.093,0.773,8.911,2.869,0.610
0.410,0.119,0.820,25.452,-5.493,-3.723
0.479,0.163,0.913,31.738,-10.986,-5.188
0.521,0.156,1.014,26.184,-10.681,-4.211
0.539,0.134,1.036,13.611,-6.958,-1.526
0.511,0.104,1.002,2.563,-1.282,1.038
0.489,0.065,0.920,-4.333,2.930,2.869
0.462,0.052,0.877,-5.554,4.211,3.906
0.463,0.089,0.939,-3.418,2.075,4.761
0.500,0.152,1.010,-0.427,-2.136,4.333
0.523,0.161,1.077,4.700,-4.272,1.831
0.496,0.144,1.067,6.592,-1.709,1.038
0.436,0.079,1.001,1.465,3.174,2.808
0.386,-0.022,0.955,-5.188,6.470,6.104
0.342,-0.076,0.943,-8.789,6.653,9.949
0.340,-0.071,0.995,-6.348,4.150,12.268
0.369,0.010,1.000,-1.038,2.136,13.000
0.361,0.105,0.962,5.859,3.296,11.536
0.312,0.148,0.897,9.033,5.798,9.033
0.279,0.144,0.846,6.470,5.310,8.057
0.275,0.129,0.849,2.563,3.601,7.751
0.283,0.101,0.872,0.854,2.197,7.507
0.299,0.101,0.885,1.465,1.099,7.568
0.306,0.134,0.874,4.395,0.793,7.202
0.309,0.182,0.869,7.996,-0.305,6.042
0.326,0.216,0.877,8.118,-0.549,5.127
0.313,0.219,0.862,4.211,1.831,5.493
0.297,0.203,0.835,-0.366,3.906,6.470
0.298,0.181,0.823,-1.465,3.906,6.531
0.289,0.161,0.841,2.136,1.892,5.066
0.313,0.151,0.866,6.958,-0.732,3.479
0.333,0.173,0.882,10.681,-1.709,2.380
0.338,0.169,0.890,10.864,-1.282,1.709
0.348,0.151,0.882,8.423,0.916,2.075
0.341,0.149,0.876,4.028,3.723,4.333
0.361,0.146,0.895,0.671,3.784,5.859
0.394,0.152,0.913,-0.305,2.747,5.859
0.404,0.171,0.934,2.441,2.563,4.089
0.416,0.153,0.951,5.188,0.732,0.854
0.424,0.126,0.956,6.226,-0.854,-1.221
0.422,0.096,0.955,5.066,-0.916,-1.709
0.418,0.066,0.968,1.953,-0.610,-1.221
0.425,0.050,0.974,-1.343,-0.244,0.122
0.416,0.046,0.983,-3.113,0.000,1.221
0.423,0.051,0.990,-2.808,0.366,1.709
0.413,0.067,0.978,-1.892,1.465,2.197
0.394,0.076,0.961,-0.916,2.563,2.075
0.375,0.061,0.937,0.122,3.967,1.892
0.360,0.055,0.918,0.427,5.005,2.563
0.349,0.050,0.902,-0.244,5.310,3.479
0.344,0.060,0.895,-1.221,5.066,4.639
0.339,0.071,0.881,-1.099,4.395,5.249
0.331,0.083,0.866,-0.366,3.601,5.554
0.328,0.104,0.850,0.427,3.113,5.737
0.316,0.140,0.837,1.160,2.563,5.737
0.314,0.149,0.829,0.916,2.075,5.493
0.314,0.147,0.830,-0.854,1.465,5.554
0.327,0.156,0.829,-1.831,0.488,5.554
0.340,0.159,0.835,-0.977,-0.122,4.517
0.356,0.171,0.837,0.793,-0.244,3.296
0.346,0.182,0.841,2.747,-0.122,1.587
0.330,0.176,0.822,4.028,0.061,0.000
0.324,0.157,0.820,4.944,-0.793,-1.343
0.325,0.145,0.814,3.906,-2.502,-1.587
0.337,0.131,0.829,1.648,-3.784,-0.977
0.359,0.133,0.848,-0.427,-5.066,-0.305
0.374,0.142,0.870,-1.526,-5.554,-0.061
0.387,0.139,0.888,-1.099,-5.005,-0.183
0.394,0.146,0.898,-0.366,-4.333,-0.122
0.390,0.130,0.902,0.305,-4.089,-1.038
0.385,0.105,0.902,1.770,-4.456,-2.014
0.383,0.092,0.902,3.906,-5.493,-2.625
0.376,0.091,0.920,6.226,-6.042,-2.869
0.380,0.098,0.927,6.348,-5.981,-2.625
0.379,0.103,0.953,4.456,-4.517,-1.953
0.378,0.086,0.946,1.526,-1.587,-0.610
0.351,0.075,0.929,-1.282,1.160,1.038
0.342,0.058,0.911,-0.549,1.648,1.343
0.346,0.052,0.902,1.648,-0.305,1.038
0.333,0.079,0.911,3.052,-2.075,1.465

2.288,-0.191,-0.574,-90.820,-133.362,-36.438
2.395,-0.238,-0.632,-78.979,-139.526,-39.612
2.353,-0.225,-0.800,-57.617,-139.465,-43.396
2.296,-0.108,-1.124,-31.067,-139.343,-51.147
2.142,-0.004,-1.563,-5.127,-144.043,-59.937
1.904,0.158,-1.999,8.484,-162.964,-62.866
1.596,0.292,-2.151,9.033,-194.519,-59.265
1.206,0.454,-1.973,-2.625,-228.333,-52.673
0.605,0.585,-1.746,-22.949,-259.216,-53.284
-0.214,0.495,-1.423,-45.593,-282.959,-56.152
-1.034,0.462,-0.800,-76.233,-301.270,-49.316
-1.828,0.159,0.267,-109.192,-311.523,-37.537
-2.517,-0.140,1.432,-130.493,-294.922,-15.625
-2.886,0.007,2.124,-143.860,-243.042,6.897
-3.259,0.402,2.490,-148.743,-183.167,14.893
-3.739,1.010,2.417,-191.345,-152.893,10.315
-3.419,1.108,3.060,-294.434,-187.866,-7.446
-2.111,0.786,3.892,-413.086,-246.094,-17.456
-0.956,0.406,4.000,-477.234,-250.061,-15.320
0.005,0.054,4.000,-422.668,-183.594,-33.752
0.240,-0.276,3.620,-257.507,-95.459,-61.951
-0.077,-0.183,2.674,-88.074,-26.245,-66.345
-0.144,-0.071,1.651,54.443,12.268,-72.327
-0.186,0.021,0.789,175.232,15.259,-81.848
-0.151,0.335,0.392,260.254,-0.549,-81.970
-0.037,0.552,0.374,284.668,-26.428,-83.130
0.059,0.391,0.458,228.149,-37.903,-79.224
0.021,0.085,0.411,91.309,-18.066,-48.889
-0.044,-0.088,0.440,-53.223,8.118,-2.808
-0.035,-0.092,0.613,-137.634,17.883,29.907
0.055,-0.010,0.735,-157.043,14.160,39.917
0.104,0.110,0.830,-126.404,4.333,33.569
0.166,0.202,0.834,-69.824,-8.057,19.226
0.224,0.288,0.810,-10.193,-18.433,3.235
0.256,0.370,0.860,33.264,-22.766,-8.240
0.292,0.410,0.927,49.133,-21.423,-15.076
0.278,0.342,0.954,36.682,-14.404,-17.456
0.257,0.231,0.964,7.507,-2.075,-12.207
0.245,0.193,0.930,-20.386,10.925,-2.808
0.234,0.144,0.878,-34.302,16.724,1.648
0.283,0.056,0.842,-34.180,11.841,1.648
0.354,0.066,0.903,-25.208,0.305,1.038
0.422,0.148,0.988,-11.536,-9.155,-1.099
0.439,0.197,0.998,-2.502,-12.451,-2.014
0.449,0.193,1.002,-1.709,-10.254,-2.197
0.425,0.120,0.995,-6.836,-5.676,-1.831
0.414,0.016,1.019,-14.893,-1.709,1.221
0.437,-0.051,1.078,-20.630,-0.061,7.080
0.453,-0.064,1.109,-18.066,1.038,11.108
0.468,-0.026,1.111,-7.080,2.747,12.451
0.482,0.054,1.090,5.920,5.432,12.268
0.434,0.179,0.985,13.733,11.230,12.024
0.362,0.219,0.849,16.052,14.465,8.667
0.306,0.198,0.785,12.024,11.475,5.676
0.302,0.163,0.814,2.319,6.104,6.775
0.328,0.113,0.904,-7.141,0.916,8.667
0.349,0.103,0.968,-9.583,-1.526,10.559
0.361,0.135,0.986,-4.028,-0.793,10.498
0.328,0.189,0.947,5.920,2.014,8.362
0.302,0.227,0.894,11.047,4.578,6.409
0.272,0.222,0.823,8.362,8.118,5.737
0.261,0.202,0.785,2.014,9.521,6.958
0.245,0.211,0.793,-2.075,8.789,7.996
0.258,0.207,0.817,-3.174,4.150,6.775
0.280,0.183,0.851,-1.587,-1.160,3.845
0.287,0.185,0.865,1.038,-2.625,2.319
0.290,0.180,0.876,4.028,-1.770,1.892
0.311,0.169,0.900,6.165,-0.671,1.526
0.317,0.173,0.912,7.690,1.526,2.014
0.307,0.178,0.922,8.179,4.578,2.869
0.322,0.178,0.917,9.094,5.615,2.808
0.312,0.188,0.902,9.521,6.348,2.686
0.296,0.170,0.869,8.911,6.958,2.502
0.285,0.162,0.830,7.446,5.859,2.441
0.283,0.164,0.815,6.165,2.869,2.441
0.304,0.171,0.845,3.052,-0.671,1.892
0.341,0.164,0.912,-2.136,-3.174,1.770
0.379,0.131,0.964,-7.568,-4.517,1.709
0.401,0.095,1.011,-8.545,-3.845,1.343
0.414,0.074,1.039,-4.272,-2.563,0.916
0.430,0.079,1.045,3.357,-1.343,-0.244
0.412,0.103,1.029,11.963,1.831,-1.160
0.391,0.112,0.998,17.273,5.493,-1.709
0.379,0.101,0.966,18.677,7.080,-2.319
0.365,0.087,0.948,17.883,8.362,-1.892
0.366,0.076,0.936,15.320,8.911,-1.160
0.358,0.077,0.931,12.146,9.155,-0.122
0.343,0.091,0.907,7.812,9.033,1.343
0.327,0.101,0.896,4.517,7.690,2.075
0.321,0.109,0.885,1.038,6.226,2.747
0.321,0.108,0.879,-2.258,5.371,3.235
0.328,0.107,0.875,-3.967,4.456,2.502
0.325,0.092,0.872,-4.272,3.784,2.075
0.333,0.098,0.871,-3.296,3.357,1.831
0.323,0.106,0.867,-0.549,3.296,1.953
0.310,0.118,0.859,3.967,3.113,1.648
0.315,0.131,0.852,7.385,1.343,0.854
0.316,0.145,0.838,8.545,0.854,0.610
0.313,0.154,0.820,6.531,1.465,1.099
0.313,0.167,0.798,4.028,1.892,1.831
0.305,0.161,0.789,2.319,2.075,1.709
0.316,0.152,0.803,1.831,0.305,1.160
0.325,0.151,0.826,3.174,-1.953,0.000
0.341,0.136,0.865,6.042,-3.296,-0.916
0.352,0.147,0.885,7.385,-3.174,-0.488
0.358,0.151,0.900,8.362,-1.892,-0.427
0.362,0.138,0.897,8.789,0.183,-0.793
0.368,0.146,0.876,7.996,1.404,-0.061
0.366,0.135,0.865,7.874,2.991,-0.488
0.365,0.129,0.860,7.996,2.441,-0.732
0.367,0.123,0.868,7.080,1.465,-0.610
0.369,0.126,0.884,5.432,0.488,-0.488
0.375,0.130,0.908,4.211,-0.427,-0.427
0.373,0.119,0.926,2.991,0.000,-0.854
0.367,0.102,0.935,1.343,0.854,-1.038
0.356,0.081,0.927,-0.488,2.563,-0.854
0.338,0.066,0.911,-1.038,3.235,-0.122
0.337,0.051,0.907,-0.549,2.319,0.366
0.340,0.069,0.917,0.610,0.366,1.221

1.435,0.304,-0.894,-41.626,-60.486,-33.569
1.503,0.286,-0.908,-58.655,-77.148,-34.180
1.591,0.287,-0.945,-70.618,-94.360,-35.767
1.712,0.327,-1.020,-77.393,-107.788,-40.100
1.864,0.336,-1.153,-80.505,-120.483,-46.631
2.031,0.299,-1.402,-76.904,-133.850,-51.208
2.209,0.264,-1.583,-67.871,-150.452,-51.880
2.234,0.342,-1.677,-58.411,-170.471,-53.223
2.049,0.431,-1.709,-58.350,-198.181,-61.890
1.742,0.471,-1.750,-74.951,-231.140,-74.768
1.317,0.386,-1.658,-108.032,-265.747,-80.383
1.038,0.188,-1.418,-146.362,-298.401,-71.228
0.775,0.001,-1.114,-171.631,-316.650,-52.368
0.450,-0.212,-0.823,-158.386,-324.463,-35.889
0.131,-0.224,-0.499,-102.112,-325.806,-26.367
-0.302,-0.270,0.064,-15.686,-312.805,-24.536
-0.863,0.085,0.827,65.125,-264.709,-10.559
-2.089,0.998,0.738,74.707,-192.322,11.658
-3.744,1.594,1.083,-5.310,-156.555,16.357
-4.000,1.306,1.701,-183.960,-191.223,3.601
-4.000,0.607,3.217,-408.386,-265.442,8.545
-3.061,-0.119,4.000,-571.716,-336.548,23.010
-1.575,-0.338,4.000,-612.366,-356.262,24.292
-0.325,-0.355,4.000,-513.428,-284.546,-5.676
-0.038,-0.750,4.000,-356.323,-145.630,-32.288
-0.145,-1.050,3.727,-191.284,-14.648,-39.368
-0.383,-0.775,1.795,18.372,50.354,-45.776
-0.491,0.066,0.533,256.104,63.293,-56.641
-0.253,1.177,0.010,417.603,27.344,-67.566
0.185,1.670,0.041,438.721,-25.696,-85.510
0.496,1.401,-0.027,366.333,-47.607,-107.727
0.381,0.725,-0.005,246.765,-38.940,-112.000
0.094,0.224,-0.006,79.285,-20.325,-77.148
0.154,-0.019,0.495,-103.638,3.845,-15.747
0.061,0.015,0.761,-200.684,19.409,30.945
0.115,0.022,0.969,-219.727,15.442,45.471
0.193,0.070,0.973,-166.687,10.132,40.649
0.196,0.198,0.889,-79.651,-0.916,20.935
0.250,0.318,0.854,-0.793,-15.564,-2.014
0.385,0.461,0.914,51.575,-25.696,-16.541
0.401,0.578,0.815,68.787,-23.804,-22.766
0.303,0.564,0.734,50.598,-10.315,-21.118
0.196,0.480,0.693,7.263,0.977,-12.024
0.139,0.379,0.717,-33.875,2.747,-3.601
0.175,0.260,0.886,-50.598,-1.343,-1.831
0.214,0.213,1.017,-49.133,-6.653,-2.380
0.210,0.202,1.100,-35.278,-8.728,-4.517
0.210,0.233,1.053,-13.550,-9.644,-8.850
0.231,0.213,0.999,3.357,-9.705,-14.465
0.297,0.132,0.974,9.338,-10.986,-16.907
0.359,0.043,0.978,2.075,-8.301,-15.137
0.376,-0.023,1.036,-6.897,-1.953,-10.620
0.436,-0.059,1.120,-13.062,-1.038,-6.042
0.498,-0.084,1.165,-16.174,-1.343,-3.845
0.516,-0.082,1.150,-11.169,6.531,-2.808
0.493,-0.096,1.099,-3.784,8.362,-1.099
0.447,-0.081,0.990,0.122,12.756,1.343
0.384,-0.060,0.910,8.911,18.738,3.418
0.347,-0.036,0.861,12.756,13.916,4.700
0.353,-0.013,0.891,10.681,4.395,4.761
0.388,-0.000,0.972,7.629,-0.427,5.066
0.425,0.016,1.013,4.456,0.183,7.507
0.398,0.052,0.986,2.808,-0.793,9.399
0.355,0.091,0.945,7.080,-0.244,7.507
0.320,0.126,0.901,11.658,1.038,5.249
0.305,0.130,0.885,11.353,1.282,4.028
0.280,0.120,0.871,8.240,4.761,4.761
0.265,0.116,0.853,4.395,6.958,6.531
0.267,0.172,0.826,2.747,6.348,8.423
0.250,0.236,0.818,4.028,4.578,8.423
0.238,0.247,0.800,1.343,1.587,7.324
0.252,0.214,0.795,-4.944,-0.610,7.263
0.243,0.181,0.806,-8.118,2.625,7.385
0.260,0.151,0.829,-3.723,3.723,6.287
0.289,0.140,0.863,3.601,0.183,4.883
0.293,0.161,0.866,7.568,2.014,4.395
0.270,0.183,0.864,7.385,1.892,5.310
0.292,0.194,0.865,4.456,-0.427,5.432
0.303,0.193,0.872,4.272,2.136,4.211
0.309,0.186,0.868,5.005,1.587,3.906
0.320,0.170,0.873,4.700,-0.488,2.625
0.320,0.149,0.863,6.104,0.488,1.160
0.327,0.143,0.875,8.423,0.854,0.061
0.342,0.147,0.905,7.629,-2.319,-1.526
0.341,0.143,0.937,4.578,-0.183,-1.831
0.354,0.094,0.970,-1.770,-1.587,-0.793
0.370,0.040,0.996,-4.822,1.099,0.122
0.371,0.016,1.007,-4.456,0.000,1.770
0.386,0.007,1.016,0.854,2.869,0.793
0.388,0.031,1.013,8.179,6.531,0.122
0.387,0.046,1.014,10.437,6.714,0.610
0.383,0.049,1.006,7.080,5.249,1.343
0.369,0.029,0.999,3.601,9.949,1.770
0.357,0.027,0.973,2.380,14.038,3.357
0.339,0.037,0.953,1.831,12.939,4.944
0.326,0.036,0.937,1.404,10.742,5.127
0.318,0.039,0.923,0.610,8.301,5.432
0.322,0.046,0.928,1.282,7.996,4.700
0.340,0.066,0.936,4.150,3.601,4.944
0.343,0.084,0.930,6.958,-0.610,4.150
0.348,0.103,0.920,10.193,1.770,3.113
0.339,0.121,0.906,9.827,3.540,3.662
0.331,0.138,0.884,6.348,5.859,4.761
0.300,0.129,0.856,0.549,9.827,5.554
0.297,0.120,0.841,-4.211,7.874,7.385
0.304,0.125,0.840,-6.165,4.639,7.202
0.312,0.144,0.849,-1.892,5.310,5.432
0.323,0.172,0.843,2.014,0.793,4.150
0.329,0.196,0.846,5.798,1.160,2.319
0.327,0.205,0.832,6.653,-1.587,1.160
0.319,0.181,0.818,6.226,2.014,-0.854
0.313,0.151,0.811,4.883,2.991,-0.854
0.321,0.129,0.817,0.732,-0.244,0.122
0.318,0.119,0.818,0.671,2.136,0.427
0.329,0.119,0.836,0.916,-2.625,1.465
0.351,0.129,0.856,2.808,-2.441,0.549
0.351,0.144,0.877,5.676,-2.441,0.549
0.353,0.136,0.882,4.883,-3.235,-0.427
0.360,0.132,0.885,4.944,-2.258,-0.366

2.232,-0.187,-1.094,-53.833,-125.122,-24.963
2.428,-0.131,-1.634,-22.034,-135.132,-31.006
2.491,-0.098,-2.153,1.343,-157.959,-39.917
2.441,-0.081,-2.449,4.395,-188.477,-42.053
2.235,0.105,-2.654,-22.644,-214.661,-37.415
1.828,0.328,-2.760,-63.477,-246.582,-35.706
1.407,0.255,-2.521,-102.417,-282.593,-38.391
0.950,0.286,-2.150,-135.681,-307.922,-27.405
0.330,0.344,-1.336,-128.296,-325.012,-8.972
-0.280,0.417,-0.306,-88.562,-313.965,4.333
-1.090,0.388,0.706,-51.147,-264.343,21.484
-2.560,0.637,1.666,-30.457,-201.111,60.303
-3.784,1.056,2.052,-70.740,-176.208,92.896
-4.000,1.127,2.741,-147.278,-198.242,81.665
-4.000,0.645,3.547,-262.329,-238.586,54.321
-3.625,0.060,4.000,-400.085,-270.691,55.664
-2.243,-0.079,4.000,-473.206,-282.288,71.289
-0.283,0.101,4.000,-408.020,-226.074,46.692
0.706,0.042,4.000,-225.952,-122.925,-13.489
0.175,0.272,3.425,-36.438,-41.565,-47.241
-0.044,0.505,1.931,117.920,30.273,-71.350
-0.097,0.707,0.696,235.107,40.833,-102.173
-0.069,0.895,0.073,294.006,14.404,-125.549
-0.025,0.990,-0.249,287.354,-21.606,-136.230
-0.060,0.677,-0.154,225.769,-49.500,-138.428
-0.179,0.146,0.125,93.323,-52.063,-104.187
-0.101,-0.142,0.468,-73.242,-21.545,-29.114
-0.081,-0.214,0.861,-193.115,3.662,36.499
0.062,-0.201,1.119,-230.225,5.920,66.162
0.246,-0.095,1.237,-189.514,-1.587,60.364
0.365,0.159,1.094,-101.807,-11.658,33.691
0.349,0.490,0.829,-10.864,-19.897,2.625
0.302,0.665,0.657,51.208,-22.766,-20.386
0.286,0.648,0.537,68.542,-19.714,-31.433
0.199,0.462,0.529,41.870,-11.292,-27.161
0.163,0.240,0.649,-4.150,-4.517,-12.817
0.217,0.100,0.848,-39.917,-5.554,0.549
0.251,0.082,1.010,-48.096,-9.460,6.653
0.242,0.197,1.047,-34.607,-12.512,6.226
0.266,0.360,0.994,-13.245,-17.273,0.977
0.212,0.469,0.944,3.906,-12.878,-5.615
0.188,0.433,0.857,3.540,-10.742,-7.141
0.207,0.333,0.826,-4.944,-2.563,-4.211
0.294,0.256,0.876,-8.057,-6.775,-2.808
0.413,0.190,0.933,0.183,-10.620,-5.981
0.447,0.120,0.988,3.357,-10.925,-8.545
0.438,0.095,0.966,-0.183,-12.512,-4.639
0.390,0.086,0.940,-0.977,-9.888,-2.563
0.397,0.090,0.962,0.488,-11.841,-1.709
0.470,0.095,0.997,-0.061,-12.085,-1.404
0.510,0.074,1.062,-0.305,-8.301,-1.465
0.514,0.036,1.131,-0.305,-3.540,0.488
0.527,0.038,1.129,4.517,-1.282,2.380
0.488,0.074,1.077,15.930,1.282,1.526
0.385,0.071,0.985,23.926,3.784,-0.305
0.348,0.036,0.903,23.743,1.465,0.305
0.329,0.018,0.879,21.240,-0.183,3.357
0.320,0.068,0.899,17.273,-1.648,7.385
0.370,0.205,0.901,16.296,-7.019,9.583
0.375,0.292,0.926,18.066,-8.301,6.775
0.384,0.290,0.954,12.817,-4.639,5.493
0.370,0.240,0.963,1.404,0.366,8.667
0.323,0.180,0.936,-3.662,9.766,10.376
0.290,0.136,0.884,-0.305,8.545,9.766
0.269,0.195,0.853,11.841,7.141,7.202
0.240,0.291,0.831,19.104,3.784,5.066
0.252,0.333,0.811,15.503,0.244,2.380
0.253,0.310,0.800,5.859,-1.587,0.977
0.267,0.240,0.819,-4.517,-4.150,1.709
0.300,0.195,0.838,-8.179,-1.282,2.930
0.311,0.200,0.883,-6.165,-0.427,2.991
0.324,0.242,0.910,1.587,1.831,1.770
0.309,0.260,0.910,5.310,1.770,-0.122
0.298,0.248,0.867,6.714,4.578,-0.244
0.289,0.203,0.841,3.723,4.578,-0.732
0.286,0.146,0.836,0.305,3.967,0.122
0.293,0.110,0.850,-2.686,2.991,1.953
0.320,0.107,0.868,-0.793,1.587,3.052
0.348,0.150,0.908,5.615,-0.793,3.235
0.381,0.182,0.939,12.390,-1.953,1.099
0.399,0.175,0.958,16.235,-0.183,-1.282
0.379,0.157,0.941,14.893,2.991,-0.916
0.368,0.126,0.909,11.169,6.165,0.366
0.368,0.105,0.904,7.324,6.226,1.343
0.389,0.083,0.925,2.441,5.188,3.235
0.402,0.082,0.940,-2.075,4.272,4.761
0.409,0.088,0.953,-2.075,3.357,4.700
0.407,0.122,0.949,0.671,3.479,4.089
0.387,0.139,0.933,1.770,4.395,3.479
0.344,0.122,0.914,0.610,6.958,3.540
0.347,0.073,0.920,-2.197,6.165,3.418
0.349,0.042,0.944,-1.770,7.019,4.333
0.362,0.054,0.959,2.136,7.446,5.249
0.365,0.086,0.944,8.728,7.568,4.944
0.329,0.124,0.893,13.733,9.033,3.723
0.323,0.159,0.836,15.442,7.751,4.089
0.311,0.177,0.814,12.085,6.470,4.089
0.311,0.164,0.825,7.996,4.883,5.432
0.331,0.158,0.836,4.150,8.057,6.042
0.342,0.166,0.845,3.052,5.188,6.165
0.345,0.188,0.863,8.057,4.395,5.554
0.344,0.222,0.859,9.705,6.836,4.395
0.342,0.240,0.847,8.423,6.592,3.967
0.327,0.233,0.832,7.874,6.226,3.418
0.322,0.209,0.811,5.676,7.874,2.869
0.316,0.183,0.797,2.502,6.287,4.150
0.333,0.177,0.821,0.977,4.150,4.333
0.354,0.184,0.864,2.991,1.526,3.174
0.374,0.196,0.889,6.409,-1.587,2.075
0.375,0.207,0.893,9.583,-0.610,0.183
0.361,0.210,0.880,11.230,1.709,-0.549
0.355,0.188,0.872,10.010,3.235,-0.549
0.351,0.160,0.874,7.629,4.883,-0.122
0.345,0.136,0.888,4.700,4.883,1.221
0.365,0.131,0.901,2.808,3.845,2.136
0.383,0.139,0.912,4.578,-0.061,2.075
0.387,0.160,0.923,9.399,-0.244,1.160
0.391,0.186,0.932,13.794,0.427,0.366
0.391,0.199,0.927,14.282,2.380,0.000

1.810,0.120,-0.931,-50.049,-180.176,-53.833
1.872,0.078,-1.009,-49.866,-203.735,-64.880
1.922,-0.037,-0.977,-64.697,-230.530,-72.266
1.885,-0.127,-0.918,-93.872,-247.498,-68.604
1.797,-0.255,-0.794,-116.455,-258.850,-59.021
1.658,-0.336,-0.707,-123.047,-264.160,-47.058
1.449,-0.361,-0.605,-109.619,-263.123,-34.912
1.037,-0.304,-0.520,-84.778,-260.986,-22.278
0.648,-0.188,-0.527,-59.082,-258.179,-10.010
0.076,0.003,-0.586,-36.743,-261.902,-2.380
-0.446,0.108,-0.477,-23.071,-274.048,4.456
-1.038,0.074,-0.244,-25.940,-281.860,17.456
-1.617,0.019,0.211,-36.926,-273.865,40.894
-2.117,0.360,0.504,-56.641,-247.498,58.838
-2.732,0.755,0.834,-77.820,-216.003,53.162
-3.550,1.367,1.285,-120.239,-200.134,37.537
-3.872,1.723,2.186,-229.309,-222.229,16.235
-2.994,1.762,3.239,-398.193,-258.362,0.732
-1.892,1.620,4.000,-542.786,-276.917,6.531
-0.839,1.094,4.000,-564.270,-233.337,-7.080
0.757,0.479,4.000,-439.697,-109.375,-63.538
0.559,-0.933,3.998,-181.152,-8.850,-119.141
-0.519,-1.474,2.668,111.084,48.279,-130.859
-1.040,-1.259,1.104,351.807,97.473,-106.873
-1.015,-0.235,0.477,488.159,77.881,-71.533
-0.347,0.494,0.354,543.640,25.269,-62.622
0.084,0.760,0.293,477.966,-17.395,-78.918
0.035,0.713,0.189,268.433,-9.521,-51.453
0.068,0.694,0.193,-8.606,31.921,21.790
0.155,0.594,0.359,-216.187,55.725,78.552
0.195,0.434,0.604,-290.771,55.237,92.346
0.189,0.373,0.845,-260.376,38.635,79.529
0.272,0.281,0.991,-159.424,16.052,49.744
0.346,0.304,1.040,-31.494,-5.432,10.620
0.307,0.392,0.988,72.998,-17.456,-23.437
0.255,0.408,0.853,115.479,-18.738,-38.940
0.170,0.391,0.788,93.079,-7.446,-31.311
0.155,0.369,0.798,27.039,10.864,-7.141
0.198,0.348,0.822,-39.001,23.071,15.320
0.215,0.257,0.818,-67.627,24.536,20.630
0.208,0.277,0.808,-58.960,19.470,15.686
0.264,0.302,0.817,-33.997,11.841,7.019
0.346,0.295,0.748,-12.573,5.249,-0.427
0.372,0.311,0.771,4.395,1.770,-4.822
0.399,0.273,0.864,12.329,-0.916,-8.606
0.447,0.141,0.942,6.470,-1.648,-9.949
0.462,0.058,0.904,-7.690,5.676,-3.906
0.423,0.071,0.873,-16.479,12.573,3.235
0.413,0.114,0.864,-16.602,12.024,5.493
0.412,0.139,0.869,-11.902,6.714,3.174
0.445,0.115,0.900,-7.507,2.441,1.221
0.426,0.127,0.866,-2.991,3.906,2.197
0.377,0.126,0.858,4.517,4.944,1.587
0.384,0.121,0.853,9.644,1.465,-0.671
0.401,0.120,0.838,7.812,-0.427,-0.183
0.387,0.164,0.831,5.371,0.793,1.587
0.387,0.202,0.838,5.493,1.282,1.343
0.361,0.211,0.840,3.906,1.587,0.488
0.331,0.193,0.847,1.282,3.052,1.526
0.314,0.181,0.868,-1.099,3.784,2.869
0.319,0.168,0.858,-2.502,3.418,2.869
0.294,0.159,0.853,-2.991,4.089,3.418
0.298,0.170,0.848,-0.977,3.845,3.479
0.294,0.182,0.885,2.991,1.709,1.953
0.311,0.193,0.902,5.310,0.977,0.488
0.289,0.180,0.909,3.906,2.014,0.549
0.281,0.152,0.875,1.404,3.235,1.160
0.247,0.129,0.858,1.221,3.601,1.953
0.258,0.132,0.842,3.174,1.221,1.892
0.260,0.159,0.868,6.531,-2.014,1.099
0.307,0.166,0.919,8.301,-3.845,0.732
0.335,0.188,0.960,7.874,-4.456,1.526
0.353,0.199,0.980,7.751,-3.601,0.854
0.346,0.195,0.973,6.287,-1.709,-0.122
0.335,0.176,0.945,2.869,1.709,0.061
0.330,0.157,0.908,-0.305,4.578,1.160
0.316,0.143,0.905,0.183,5.188,1.587
0.314,0.128,0.924,2.502,2.747,0.854
0.342,0.125,0.950,4.333,-0.916,0.488
0.369,0.119,0.976,5.432,-3.418,0.122
0.388,0.118,0.976,4.700,-3.113,1.099
0.391,0.120,0.963,3.723,-0.793,2.869
0.385,0.123,0.943,3.662,1.526,3.784
0.389,0.117,0.946,4.089,3.052,4.272
0.393,0.128,0.963,4.700,3.662,4.822
0.392,0.124,0.987,4.639,4.700,5.310
0.395,0.126,0.988,4.517,4.944,5.554
0.389,0.136,0.970,6.104,5.127,4.822
0.378,0.143,0.949,8.362,5.554,3.845
0.375,0.156,0.910,8.240,6.531,3.479
0.365,0.180,0.877,6.775,7.751,3.601
0.349,0.206,0.846,5.676,8.423,3.723
0.334,0.214,0.828,3.723,8.362,3.357
0.320,0.194,0.836,0.366,6.348,3.296
0.335,0.168,0.858,-3.601,4.883,3.662
0.352,0.145,0.868,-5.554,4.700,4.822
0.337,0.141,0.873,-2.991,5.554,4.578
0.322,0.167,0.838,1.648,5.981,3.540
0.321,0.201,0.829,5.859,5.493,2.380
0.316,0.239,0.817,6.287,5.188,1.709
0.315,0.244,0.818,2.563,5.676,2.136
0.323,0.213,0.824,-2.991,4.883,1.953
0.328,0.175,0.841,-5.920,3.906,2.014
0.335,0.137,0.863,-4.944,1.709,1.282
0.345,0.126,0.871,-0.610,0.061,0.183
0.350,0.142,0.882,4.822,-0.671,-0.305
0.355,0.166,0.882,8.728,-0.610,-0.732
0.357,0.188,0.870,9.033,0.366,-0.244
0.357,0.194,0.870,6.531,1.587,0.610
0.356,0.183,0.881,3.052,2.197,1.465
0.373,0.160,0.892,-0.244,1.709,1.648
0.383,0.145,0.904,-1.221,0.977,1.587
0.383,0.147,0.918,0.366,0.977,1.282
0.380,0.164,0.908,3.113,0.305,0.305
0.376,0.173,0.907,5.493,0.549,-0.427
0.372,0.171,0.900,5.432,1.465,-0.793
0.365,0.162,0.903,3.906,2.563,0.000
0.368,0.147,0.906,2.686,3.357,0.061
0.366,0.134,0.907,2.441,4.211,0.427

1.652,-0.074,-0.834,-79.590,-181.946,-20.203
1.722,-0.119,-0.696,-76.843,-191.772,-18.799
1.701,-0.056,-0.602,-74.463,-194.214,-15.747
1.546,0.066,-0.615,-70.496,-198.975,-18.860
1.280,0.135,-0.652,-70.374,-217.468,-29.175
1.028,0.146,-0.616,-81.116,-249.451,-38.818
0.905,-0.072,-0.306,-99.182,-283.142,-42.236
0.869,-0.540,0.111,-109.802,-292.664,-23.804
0.814,-0.815,0.405,-87.402,-265.564,16.357
0.625,-0.772,0.643,-12.695,-226.257,43.396
0.412,-0.217,0.539,78.857,-195.557,38.513
-0.239,0.459,-0.032,136.475,-177.063,12.878
-1.050,1.022,-0.323,128.418,-171.509,-0.488
-1.761,1.396,-0.151,48.096,-176.697,3.784
-2.323,1.612,0.423,-59.021,-180.176,19.165
-2.843,1.799,1.270,-153.748,-186.951,28.259
-3.244,1.656,2.249,-228.027,-203.491,17.212
-3.133,1.376,3.445,-292.053,-230.530,2.991
-2.324,0.766,4.000,-353.088,-242.371,-15.137
-0.864,0.083,4.000,-362.671,-203.918,-52.246
-0.133,-0.896,4.000,-272.949,-150.391,-88.806
-0.229,-1.746,3.608,-126.221,-112.244,-104.736
-0.241,-1.930,2.737,15.808,-64.880,-93.384
-0.320,-1.491,1.834,139.832,-22.583,-63.354
-0.367,-0.595,1.083,240.234,6.042,-34.790
-0.221,0.529,0.572,289.917,19.714,-22.949
-0.010,1.065,0.297,257.263,22.217,-15.686
0.107,1.185,0.267,138.794,15.869,-5.066
0.131,0.903,0.289,-17.700,16.357,16.479
0.205,0.552,0.546,-136.414,23.010,37.598
0.378,0.301,0.909,-167.725,21.179,43.701
0.421,0.103,1.197,-127.747,12.939,29.175
0.390,0.062,1.144,-49.622,11.108,10.254
0.263,0.123,1.005,25.879,15.442,-5.127
0.101,0.193,0.820,68.298,17.212,-12.878
0.079,0.342,0.742,72.083,12.024,-9.399
0.205,0.458,0.714,45.593,7.263,-3.357
0.317,0.520,0.757,3.357,4.822,4.456
0.402,0.470,0.850,-32.166,5.493,9.827
0.433,0.399,0.908,-51.086,6.836,10.254
0.426,0.261,0.907,-52.368,9.094,6.104
0.352,0.148,0.895,-39.001,9.521,1.709
0.312,0.096,0.917,-16.541,5.920,-1.404
0.369,0.061,0.970,7.751,-3.784,-7.202
0.440,0.078,1.016,24.231,-10.681,-11.963
0.493,0.119,0.988,26.978,-6.409,-10.742
0.457,0.165,0.897,19.043,3.601,-4.944
0.404,0.186,0.856,7.019,14.709,1.587
0.337,0.216,0.819,-5.249,20.386,6.714
0.298,0.182,0.823,-14.038,17.639,7.690
0.336,0.117,0.867,-17.151,10.681,6.958
0.388,0.095,0.914,-13.184,5.981,5.371
0.379,0.115,0.947,-2.441,4.517,2.991
0.402,0.151,0.957,8.911,3.174,-0.427
0.386,0.194,0.938,14.404,4.395,-2.502
0.348,0.205,0.912,11.658,9.033,-1.892
0.330,0.193,0.874,4.456,12.878,-0.122
0.326,0.163,0.845,-1.526,15.991,1.648
0.300,0.150,0.841,-3.601,17.944,3.174
0.292,0.160,0.873,0.244,15.808,3.113
0.310,0.187,0.890,6.104,9.338,-0.244
0.302,0.177,0.896,10.132,4.028,-3.540
0.297,0.148,0.862,7.629,2.625,-4.578
0.271,0.122,0.819,0.854,3.906,-2.747
0.258,0.090,0.800,-3.967,3.540,-1.404
0.284,0.073,0.825,-4.700,1.404,-0.244
0.334,0.077,0.868,-2.014,-0.183,1.221
0.349,0.107,0.900,3.845,0.488,1.587
0.353,0.144,0.899,10.559,1.587,0.732
0.339,0.165,0.874,15.137,3.296,-0.671
0.302,0.154,0.842,14.709,4.456,-1.465
0.297,0.130,0.805,10.864,2.136,-1.404
0.328,0.102,0.821,8.057,-1.160,-1.160
0.363,0.091,0.880,6.226,-3.296,0.122
0.409,0.103,0.936,4.944,-2.991,2.563
0.423,0.118,0.960,4.761,-1.343,3.113
0.424,0.125,0.952,6.409,1.343,1.770
0.414,0.117,0.921,8.789,3.845,-0.061
0.391,0.120,0.896,10.315,6.104,-1.038
0.383,0.116,0.878,8.240,7.324,-0.732
0.363,0.089,0.871,3.418,7.324,0.793
0.376,0.079,0.883,-0.305,5.127,2.441
0.394,0.084,0.909,-1.648,1.526,2.563
0.396,0.088,0.933,-1.038,-0.366,2.075
0.400,0.091,0.938,-1.709,-0.549,1.831
0.386,0.085,0.942,-2.625,1.099,2.686
0.375,0.084,0.943,-2.686,3.052,4.028
0.384,0.070,0.942,-0.488,4.150,4.456
0.384,0.068,0.935,3.235,5.371,4.272
0.374,0.092,0.928,7.629,6.714,4.761
0.373,0.130,0.917,11.475,7.629,4.395
0.355,0.162,0.881,12.878,7.996,3.601
0.316,0.161,0.846,11.047,7.996,2.319
0.304,0.145,0.830,6.470,5.493,1.343
0.313,0.115,0.837,0.916,2.930,1.709
0.335,0.105,0.856,-2.991,1.465,2.563
0.352,0.101,0.874,-1.953,0.671,1.892
0.371,0.120,0.876,2.380,0.610,0.549
0.364,0.148,0.876,6.409,1.282,-0.793
0.353,0.160,0.880,7.874,2.075,-1.404
0.358,0.158,0.865,5.737,2.930,-0.732
0.352,0.135,0.866,0.610,4.883,1.709
0.352,0.124,0.854,-3.052,5.920,3.784
0.359,0.124,0.864,-1.526,4.517,3.845
0.370,0.131,0.876,3.235,1.526,0.977
0.393,0.137,0.883,6.409,-0.793,-1.404
0.399,0.145,0.880,6.897,-0.549,-2.075
0.394,0.141,0.880,4.822,0.305,-1.526
0.390,0.126,0.873,1.160,1.770,-0.244
0.390,0.121,0.867,-1.892,2.747,1.465
0.389,0.126,0.879,-2.441,2.930,2.136
0.392,0.133,0.895,-0.488,2.319,1.099
0.388,0.137,0.906,1.587,1.282,-0.061
0.389,0.138,0.903,2.441,0.977,-1.099
0.373,0.124,0.895,1.770,1.099,-0.854
0.358,0.103,0.891,0.244,1.770,-0.305
0.358,0.082,0.888,-0.854,1.465,0.671
0.365,0.084,0.899,0.244,1.282,1.404
0.373,0.100,0.908,3.784,1.404,1.221

-2.007,1.461,0.089,4.639,-184.631,24.292
-2.841,1.721,0.680,-119.080,-199.036,28.076
-3.478,1.657,1.887,-269.165,-221.008,45.837
-3.310,1.280,3.499,-396.973,-251.099,56.274
-2.456,0.941,4.000,-489.136,-271.240,58.716
-1.164,0.631,4.000,-491.333,-231.628,39.551
0.308,-0.011,4.000,-400.452,-146.729,-8.301
0.746,-0.899,4.000,-252.991,-92.407,-66.162
0.451,-1.605,3.552,-59.753,-39.307,-108.704
-0.197,-1.406,2.031,145.081,-0.732,-121.521
-0.662,-0.419,0.728,297.363,19.592,-106.750
-0.368,0.804,0.072,366.699,38.025,-78.125
-0.021,1.509,-0.292,354.858,19.958,-67.566
0.132,1.355,-0.232,258.301,-16.174,-74.036
0.110,0.882,-0.020,75.500,-20.874,-48.279
0.168,0.507,0.260,-113.281,-1.160,10.132
0.263,0.240,0.626,-218.994,13.367,50.720
0.352,0.098,0.932,-230.774,17.273,58.228
0.350,0.015,1.019,-171.753,17.029,44.434
0.179,-0.055,0.838,-74.829,3.357,18.738
0.248,0.085,0.730,20.630,-8.118,-7.751
0.203,0.308,0.646,80.383,-15.869,-20.020
0.252,0.422,0.660,90.210,-20.203,-22.827
0.276,0.439,0.652,54.565,-15.137,-14.221
0.313,0.414,0.730,0.671,-5.554,1.831
0.319,0.370,0.764,-39.490,-0.244,12.634
0.343,0.338,0.758,-52.551,-0.977,14.709
0.382,0.318,0.713,-42.114,-5.066,7.751
0.338,0.302,0.778,-24.780,-9.277,0.122
0.377,0.268,0.881,-12.512,-14.526,-3.723
0.413,0.184,1.013,-2.380,-20.264,-8.850
0.468,0.075,1.108,6.592,-22.156,-13.611
0.502,0.015,1.122,13.611,-19.287,-15.259
0.489,0.001,1.061,14.954,-11.169,-13.245
0.454,-0.005,0.982,6.592,-2.686,-6.470
0.427,0.016,0.910,-5.859,4.456,4.028
0.407,0.069,0.911,-12.634,8.423,12.817
0.425,0.151,0.945,-10.864,7.263,15.991
0.443,0.183,0.965,-3.296,3.235,11.963
0.434,0.208,0.967,5.188,-0.549,5.920
0.416,0.203,0.961,10.864,-3.357,1.648
0.418,0.192,0.977,11.841,-5.249,-0.122
0.430,0.179,1.031,8.240,-4.272,1.282
0.437,0.202,1.025,1.160,-0.610,4.761
0.416,0.230,1.012,-1.831,4.211,5.249
0.373,0.245,0.975,-2.075,8.240,3.723
0.336,0.246,0.918,-2.075,10.498,2.869
0.307,0.240,0.877,0.000,10.254,1.526
0.285,0.235,0.861,3.418,7.812,-0.244
0.287,0.227,0.849,5.432,5.249,-1.587
0.287,0.211,0.839,4.517,4.211,-1.831
0.290,0.193,0.828,1.038,3.845,-1.038
0.297,0.169,0.827,-2.930,2.563,0.061
0.316,0.144,0.848,-5.859,2.014,2.075
0.345,0.156,0.869,-5.127,3.113,4.395
0.345,0.178,0.875,0.793,4.089,4.456
0.340,0.213,0.880,7.996,4.639,1.953
0.339,0.221,0.878,11.780,5.310,-0.366
0.337,0.209,0.849,10.681,6.653,-1.038
0.330,0.175,0.820,7.324,7.507,-1.282
0.327,0.147,0.814,3.906,6.409,-0.916
0.345,0.121,0.837,-0.427,4.639,0.732
0.383,0.110,0.864,-3.662,2.869,3.174
0.401,0.115,0.895,-3.723,3.113,4.822
0.421,0.130,0.906,-1.038,4.578,5.310
0.416,0.159,0.895,2.869,6.042,4.639
0.417,0.194,0.884,6.592,7.507,3.113
0.421,0.195,0.880,8.118,7.874,0.549
0.432,0.187,0.883,6.226,7.690,-0.183
0.435,0.164,0.893,2.075,7.874,0.244
0.431,0.140,0.894,-2.869,7.568,1.221
0.423,0.113,0.884,-6.531,6.958,1.892
0.409,0.101,0.880,-7.690,5.920,2.808
0.404,0.105,0.870,-6.714,5.554,3.357
0.396,0.107,0.883,-3.662,5.005,3.113
0.406,0.106,0.899,-0.732,4.456,2.563
0.411,0.113,0.902,0.427,5.798,2.258
0.393,0.124,0.880,0.183,7.568,2.441
0.372,0.151,0.831,0.183,8.911,2.380
0.355,0.170,0.779,1.038,7.996,1.648
0.345,0.188,0.744,0.671,4.822,0.916
0.359,0.203,0.757,-1.038,2.136,0.793
0.372,0.241,0.777,-5.066,1.770,2.136
0.389,0.224,0.791,-9.888,1.892,2.686
0.369,0.220,0.823,-10.742,3.296,3.357
0.379,0.208,0.804,-10.193,4.211,3.418
0.364,0.207,0.809,-4.944,4.211,2.014
0.362,0.209,0.808,0.671,3.052,-0.366
0.357,0.222,0.787,3.235,2.502,-0.793
0.348,0.209,0.792,4.272,2.869,-0.366
0.345,0.205,0.800,2.869,0.854,0.549
0.370,0.199,0.826,0.854,-1.404,1.038
0.394,0.201,0.856,-0.061,-3.296,0.854
0.412,0.204,0.884,0.977,-4.272,-0.244
0.427,0.213,0.903,3.296,-3.845,-1.648
0.420,0.215,0.904,3.967,-1.709,-2.319
0.400,0.198,0.901,1.404,1.160,-1.282
0.399,0.180,0.875,-1.648,2.991,0.793
0.399,0.156,0.879,-2.747,2.991,1.831
0.406,0.147,0.886,-2.014,1.770,1.465
0.422,0.140,0.901,-1.343,0.732,1.770
0.434,0.152,0.907,-1.587,1.099,3.052
0.432,0.185,0.910,-1.404,2.197,4.456
0.419,0.205,0.916,-0.488,2.197,3.906
0.423,0.210,0.920,0.061,1.770,2.197
0.423,0.206,0.918,-0.061,2.014,0.610
0.408,0.181,0.908,-0.366,3.357,-0.427
0.389,0.161,0.890,-0.305,4.578,-0.732
0.393,0.148,0.878,1.343,4.639,-0.977
0.385,0.151,0.885,2.563,3.967,-0.916
0.391,0.160,0.893,1.587,4.700,0.061
0.392,0.174,0.886,-1.404,5.798,1.282
0.394,0.184,0.855,-3.418,6.714,1.709
0.372,0.185,0.832,-3.662,6.775,2.258
0.365,0.189,0.818,-3.479,4.700,1.831
0.429,0.212,0.843,-4.272,1.343,2.258
0.366,0.194,0.821,-6.226,-0.732,5.066
0.390,0.217,0.864,-7.202,2.441,5.127
0.404,0.214,0.856,-6.470,3.601,4.150

1.886,0.080,-0.822,-79.468,-129.639,-31.250
1.846,0.102,-1.047,-61.340,-143.311,-40.222
1.817,0.187,-1.228,-52.856,-165.039,-42.297
1.915,0.121,-1.158,-52.856,-190.491,-44.739
1.972,0.123,-1.153,-65.735,-203.918,-41.321
1.934,0.123,-1.118,-79.041,-210.388,-39.856
1.795,0.023,-1.022,-89.966,-217.346,-43.518
1.588,-0.142,-0.920,-96.497,-217.346,-43.091
1.213,-0.205,-0.917,-94.299,-216.919,-34.485
0.839,-0.174,-0.877,-73.853,-223.999,-23.743
0.404,0.002,-0.570,-36.743,-229.309,-14.404
-0.177,0.232,-0.196,-9.155,-218.262,-5.249
-0.999,0.483,-0.080,-16.541,-199.951,8.057
-1.848,0.664,0.284,-50.110,-193.237,21.973
-2.542,0.671,0.781,-93.933,-200.806,25.513
-3.137,0.639,1.281,-123.596,-221.252,22.644
-3.547,0.961,1.925,-151.489,-243.408,22.827
-3.488,1.329,2.915,-210.693,-269.043,16.174
-2.875,1.470,3.976,-329.651,-275.085,18.066
-1.636,1.486,4.000,-472.656,-250.305,39.978
-0.634,1.102,4.000,-524.841,-188.110,32.471
1.182,-0.114,4.000,-383.911,-66.040,-52.002
1.032,-1.333,3.967,-133.118,-0.793,-121.887
0.057,-1.277,2.350,104.126,17.151,-129.150
-0.417,-0.996,1.182,296.448,64.453,-113.220
-0.712,-0.093,0.400,365.601,60.242,-77.637
-0.516,0.843,-0.156,345.032,28.503,-52.368
-0.360,1.072,-0.105,262.268,-4.944,-52.612
-0.282,0.659,0.214,88.928,-26.245,-31.738
-0.021,0.307,0.386,-109.009,-14.893,25.513
0.150,0.001,0.761,-222.961,-1.160,69.458
0.367,-0.174,1.019,-233.887,0.000,74.768
0.513,-0.135,1.085,-168.640,3.235,61.462
0.452,-0.007,0.986,-64.087,13.184,36.316
0.399,0.244,0.878,36.255,18.311,12.695
0.353,0.513,0.697,92.896,21.545,-0.732
0.242,0.663,0.500,93.872,24.780,-3.845
0.153,0.641,0.401,54.932,24.231,2.441
0.168,0.552,0.426,1.587,15.991,11.719
0.223,0.460,0.614,-39.124,4.578,17.578
0.331,0.387,0.793,-56.274,-2.930,18.066
0.433,0.406,0.869,-49.072,-2.625,15.808
0.451,0.495,0.927,-23.315,-0.122,9.033
0.495,0.483,0.895,-0.427,-1.160,-3.235
0.504,0.406,0.808,6.409,1.587,-9.583
0.457,0.299,0.783,2.686,5.127,-10.254
0.442,0.196,0.781,-4.028,2.930,-10.071
0.465,0.171,0.845,-10.254,-1.099,-7.507
0.493,0.140,0.890,-15.625,-3.174,-4.517
0.519,0.115,0.906,-18.250,-3.479,-2.625
0.504,0.110,0.880,-15.259,-2.441,-2.441
0.464,0.090,0.880,-6.531,-1.526,-2.747
0.461,0.086,0.862,0.183,-2.197,-2.502
0.445,0.083,0.869,5.371,-1.587,-1.160
0.433,0.091,0.843,10.376,-0.916,0.854
0.446,0.126,0.855,15.503,-1.648,2.075
0.420,0.143,0.882,16.602,-1.465,2.991
0.431,0.137,0.890,11.108,0.305,5.127
0.435,0.169,0.884,4.456,3.845,9.155
0.387,0.172,0.892,1.831,8.789,11.658
0.400,0.179,0.863,1.038,10.681,11.169
0.365,0.198,0.826,2.686,12.451,10.559
0.336,0.227,0.789,7.568,11.963,8.118
0.313,0.225,0.773,11.963,9.094,4.883
0.308,0.218,0.779,13.428,5.127,3.052
0.314,0.209,0.798,13.306,2.808,3.479
0.333,0.201,0.839,14.160,0.427,3.601
0.374,0.205,0.860,16.235,-0.305,3.052
0.374,0.234,0.862,18.005,2.625,3.052
0.354,0.270,0.844,17.883,6.958,3.418
0.331,0.306,0.823,14.587,8.728,3.906
0.331,0.294,0.817,9.460,8.301,2.930
0.344,0.260,0.819,2.991,5.615,2.258
0.361,0.237,0.829,-0.671,3.052,2.930
0.376,0.222,0.858,0.732,0.427,2.197
0.406,0.210,0.876,7.080,-2.808,-0.793
0.425,0.197,0.900,13.550,-4.456,-3.174
0.435,0.203,0.899,14.465,-2.319,-2.747
0.438,0.212,0.904,10.559,1.953,-0.244
0.448,0.202,0.917,6.042,5.066,2.136
0.466,0.175,0.940,2.747,6.409,3.174
0.489,0.145,0.962,1.831,7.080,2.502
0.489,0.115,0.974,3.967,7.690,1.770
0.487,0.102,0.965,8.423,7.935,0.916
0.475,0.105,0.942,12.878,8.667,-0.122
0.473,0.110,0.924,14.099,10.315,0.061
0.455,0.137,0.912,12.268,11.841,0.977
0.455,0.129,0.900,7.568,12.268,1.953
0.461,0.113,0.884,1.526,12.085,2.136
0.460,0.101,0.896,-2.686,12.207,2.930
0.466,0.090,0.900,-3.723,11.963,3.113
0.442,0.088,0.906,-1.526,11.902,2.991
0.426,0.096,0.882,1.770,11.047,2.075
0.423,0.119,0.860,5.188,9.338,1.343
0.413,0.151,0.824,6.348,8.423,1.099
0.388,0.150,0.815,4.822,9.155,1.770
0.384,0.140,0.787,1.526,8.972,2.625
0.386,0.128,0.787,-0.366,8.301,3.845
0.390,0.141,0.789,0.122,7.751,4.822
0.403,0.150,0.816,1.404,6.104,4.700
0.416,0.176,0.810,2.502,5.737,4.089
0.411,0.203,0.806,4.089,6.470,3.845
0.390,0.210,0.789,5.981,6.104,2.075
0.375,0.192,0.773,7.202,3.662,-0.427
0.386,0.178,0.765,6.836,0.305,-1.160
0.398,0.177,0.781,5.371,-2.014,-0.183
0.424,0.189,0.808,4.333,-2.441,1.038
0.450,0.209,0.821,3.967,-1.831,1.892
0.449,0.235,0.826,4.089,-0.854,1.465
0.441,0.233,0.822,4.211,0.366,0.000
0.444,0.202,0.816,2.197,1.343,-0.610
0.431,0.177,0.806,-1.221,2.380,0.610
0.442,0.154,0.820,-1.526,2.502,1.343
0.457,0.154,0.827,1.526,1.282,0.488
0.473,0.170,0.856,6.165,0.183,-0.793
0.472,0.195,0.865,8.972,0.305,-1.831
0.466,0.190,0.880,8.301,0.183,-2.380
0.461,0.168,0.861,5.249,1.038,-2.136
0.444,0.142,0.853,2.014,1.953,-1.343

-1.741,1.166,1.095,-116.516,-201.538,27.710
-1.957,1.259,1.656,-168.396,-231.995,13.245
-1.915,1.187,2.214,-231.018,-249.512,-0.427
-1.598,1.010,2.743,-285.522,-256.653,-12.634
-1.175,0.860,3.232,-318.665,-249.268,-27.222
-0.682,0.687,3.753,-319.580,-222.900,-39.490
-0.132,0.434,4.000,-283.203,-175.964,-56.274
0.298,-0.264,3.700,-201.904,-117.554,-90.088
0.374,-1.137,2.775,-69.336,-56.946,-127.930
0.080,-1.443,1.657,78.796,-13.794,-140.320
-0.505,-1.205,0.684,194.824,9.094,-112.427
-0.601,-0.384,0.297,243.347,28.076,-65.674
-0.258,0.355,0.297,221.985,24.902,-27.100
0.019,0.679,0.433,141.907,11.719,-5.859
0.196,0.634,0.450,23.010,17.944,12.329
0.237,0.486,0.465,-83.862,39.124,35.706
0.161,0.318,0.513,-134.460,50.537,49.133
0.209,0.204,0.523,-125.305,42.725,44.800
0.224,0.172,0.542,-67.932,22.522,25.696
0.227,0.210,0.597,4.944,1.221,1.343
0.268,0.281,0.719,56.213,-14.160,-14.343
0.346,0.345,0.721,69.519,-18.005,-19.226
0.368,0.356,0.687,49.316,-10.254,-13.367
0.398,0.321,0.629,13.123,-0.244,-2.014
0.407,0.258,0.665,-19.653,7.019,7.874
0.390,0.206,0.757,-38.574,7.629,13.306
0.450,0.170,0.826,-37.292,3.784,13.245
0.471,0.183,0.878,-20.325,0.732,9.033
0.453,0.198,0.921,-0.671,-1.587,2.808
0.451,0.138,0.911,11.353,-3.235,-2.869
0.454,0.064,0.907,16.357,-2.625,-4.211
0.419,0.034,0.911,15.991,0.122,-2.258
0.434,0.041,0.886,10.437,2.319,1.648
0.468,0.071,0.860,5.310,5.066,5.920
0.436,0.116,0.857,3.235,8.240,9.827
0.422,0.167,0.864,2.686,7.629,11.047
0.442,0.188,0.881,2.808,4.333,8.789
0.463,0.196,0.915,3.540,2.869,6.714
0.463,0.213,0.938,4.822,4.761,5.981
0.469,0.243,0.942,7.935,6.104,4.517
0.434,0.257,0.934,9.888,6.287,1.526
0.416,0.269,0.901,7.141,7.263,1.038
0.374,0.261,0.891,1.282,8.179,3.052
0.343,0.229,0.885,-3.418,7.446,3.357
0.348,0.184,0.876,-6.226,5.310,2.747
0.351,0.167,0.868,-5.615,3.479,1.892
0.356,0.166,0.897,-1.465,1.221,0.916
0.378,0.186,0.917,1.709,-0.305,-0.244
0.391,0.198,0.928,3.662,-0.427,-1.221
0.399,0.179,0.936,5.005,0.427,-2.319
0.383,0.168,0.925,5.066,3.967,-1.892
0.367,0.141,0.906,3.418,8.179,-0.732
0.348,0.114,0.866,1.221,11.047,0.854
0.353,0.106,0.831,0.671,11.536,2.625
0.330,0.127,0.804,1.587,9.766,3.784
0.342,0.143,0.796,3.784,4.944,2.502
0.363,0.158,0.800,6.348,-0.061,0.610
0.373,0.167,0.831,6.836,-2.563,-0.122
0.392,0.158,0.840,4.578,-3.357,-0.610
0.393,0.131,0.856,1.343,-2.380,-0.305
0.403,0.091,0.864,-1.343,-1.404,-0.305
0.408,0.047,0.887,-2.197,-0.977,-0.305
0.436,0.018,0.907,-1.404,0.671,1.038
0.447,0.032,0.898,0.793,2.625,3.174
0.444,0.064,0.890,4.333,3.052,3.784
0.439,0.106,0.890,7.141,2.075,4.395
0.444,0.131,0.896,7.690,1.221,4.517
0.463,0.132,0.877,6.348,0.916,4.150
0.446,0.131,0.870,6.226,1.770,4.272
0.440,0.122,0.876,7.324,2.014,3.540
0.447,0.118,0.891,9.033,1.099,2.441
0.449,0.118,0.910,10.254,1.282,2.441
0.441,0.122,0.910,9.155,2.441,2.625
0.428,0.131,0.896,6.348,4.089,3.479
0.399,0.140,0.875,2.441,5.859,4.822
0.379,0.148,0.849,-0.244,6.531,5.981
0.369,0.145,0.838,-0.671,5.127,5.615
0.367,0.148,0.842,1.404,2.808,4.089
0.384,0.152,0.853,5.310,0.671,2.502
0.395,0.160,0.861,9.155,-0.183,1.038
0.397,0.168,0.861,10.864,0.488,0.916
0.390,0.176,0.847,10.315,1.831,1.099
0.365,0.173,0.819,7.751,2.930,1.160
0.360,0.171,0.790,3.906,3.113,2.136
0.357,0.171,0.785,0.183,2.808,3.418
0.360,0.173,0.797,-2.197,1.587,4.089
0.381,0.170,0.820,-1.648,-1.160,2.930
0.401,0.168,0.832,1.587,-3.357,0.610
0.410,0.178,0.829,5.493,-4.089,-1.343
0.403,0.172,0.828,8.179,-4.028,-3.235
0.401,0.161,0.819,7.812,-3.601,-4.395
0.390,0.139,0.816,4.211,-2.869,-3.662
0.384,0.116,0.827,-0.671,-2.319,-1.709
0.403,0.103,0.840,-3.113,-2.686,0.061
0.412,0.103,0.863,-1.892,-3.174,0.793
0.422,0.111,0.886,1.038,-3.479,0.061
0.428,0.115,0.891,3.235,-2.930,-0.916
0.426,0.118,0.888,3.601,-1.831,-1.099
0.419,0.118,0.883,2.441,-0.366,-0.366
0.407,0.118,0.872,1.221,0.549,0.549
0.401,0.115,0.860,1.770,0.366,0.610
0.401,0.115,0.863,3.052,-0.977,-0.244
0.400,0.116,0.865,3.723,-2.014,-0.916
0.391,0.112,0.872,3.174,-2.441,-0.977
0.389,0.104,0.879,1.831,-3.052,-0.366
0.404,0.094,0.886,1.160,-3.235,0.305
0.400,0.099,0.889,1.343,-2.930,1.099
0.404,0.101,0.895,2.380,-2.686,1.160
0.408,0.116,0.889,3.174,-2.380,1.099
0.403,0.130,0.893,3.296,-1.343,1.526
0.397,0.133,0.896,2.258,-1.160,1.282
0.395,0.125,0.904,0.061,-0.977,1.343
0.397,0.113,0.905,-1.953,-0.122,2.258
0.399,0.112,0.899,-1.709,0.610,2.747
0.399,0.118,0.889,1.648,0.427,1.526
0.397,0.132,0.880,5.981,-0.244,-0.061
0.393,0.141,0.877,8.240,-0.732,-1.282
0.390,0.138,0.881,7.080,-0.671,-1.099
0.395,0.133,0.892,3.540,-0.183,0.122

